Folder: osf_9jxzs-f/9jxzs_src/data

Note: 9jxzs_src/data/Data_ReadSeaMP_Rheology_Final.txt
"site" "Freq" "G'" "G\"" "n*" "tan"
"1" "beach" 100 24350.5 16339 293.242 0.67099238208661
"2" "beach" 63.0957 20463.6 13699.1 390.29 0.66943744013761
"3" "beach" 39.8105 17271.7 11488 521.05 0.665134294829113
"4" "beach" 25.1188 14629.8 9641.47 697.529 0.659029515099318
"5" "beach" 15.849 12431.1 8096.84 936.048 0.651337371592216
"6" "beach" 10.0001 10598.2 6818.59 1260.21 0.64337245947425
"7" "beach" 6.30957 9054.33 5759.92 1700.77 0.636150880297051
"8" "beach" 3.98105 7766.25 4888.74 2305.13 0.629485272815065
"9" "beach" 2.51189 6674.46 4175.39 3134.25 0.625577200252904
"10" "beach" 1.5849 5747.93 3573.1 4270.31 0.621632483346178
"11" "beach" 1 4985.92 3096.56 5869.25 0.621060907515564
"12" "beach" 0.630957 4329.8 2692.77 8081.12 0.621915561919719
"13" "beach" 0.398107 3773.65 2343.51 11158.1 0.621019437414705
"14" "beach" 0.251189 3398.33 2068.65 15838.5 0.608725462212322
"15" "beach" 0.15849 3116.12 1774.03 22624.3 0.569307343747994
"16" "beach" 0.1 2943.21 1559.89 33310.3 0.529996160654523
"17" "beach" 0.0630957 2929.55 1407.03 51507.8 0.480288781553481
"18" "beach" 0.0398107 3112.03 1283.59 84558.9 0.412460676792961
"19" "beach" 0.0251189 3457.34 1128.29 144783 0.326346266204654
"20" "beach" 0.015849 3834.77 1206.96 253659 0.314741170917682
"21" "beach" 0.01 4451.25 1008.86 456414 0.226646447627071
"22" "wreck" 100 92300.5 113195 1460.57 1.22637472169707
"23" "wreck" 63.0957 65206.7 90715.3 1770.63 1.3911959967304
"24" "wreck" 39.8105 44783.4 70993.1 2108.44 1.5852548042355
"25" "wreck" 25.1188 29837.5 54182.3 2462.49 1.81591286133222
"26" "wreck" 15.849 19352.5 40493.1 2831.72 2.09239633122336
"27" "wreck" 10.0001 12165.7 29528.4 3193.61 2.42718462562779
"28" "wreck" 6.30957 7436.28 21084.9 3543.47 2.83540964030402
"29" "wreck" 3.98105 4422.87 14761.9 3870.9 3.33762918647846
"30" "wreck" 2.51189 2564.25 10157 4170.42 3.96100224237106
"31" "wreck" 1.5849 1457.05 6884.94 4440.31 4.72525994303559
"32" "wreck" 1 809.569 4605.92 4676.52 5.68934828285174
"33" "wreck" 0.630957 443.619 3047.76 4881.28 6.87021971556674
"34" "wreck" 0.398107 242.94 2004.9 5072.93 8.25265497653742
"35" "wreck" 0.251189 131.62 1306.44 5227.37 9.92584713569366
"36" "wreck" 0.15849 70.6097 852.052 5394.51 12.0670672726268
"37" "wreck" 0.1 40.0692 556.64 5580.8 13.8919668972677
"38" "wreck" 0.0630957 26.1818 367.817 5844.26 14.0485757281776
"39" "wreck" 0.0398107 24.8232 253.788 6405.28 10.2238228753746
"40" "wreck" 0.0251189 33.079 189.892 7673.6 5.7405604764352
"41" "wreck" 0.015849 37.8758 148.25 9654.37 3.9141087448978
"42" "wreck" 0.01 39.8576 121.913 12826.3 3.05871402191803

Note: 9jxzs_src/data/Data_RedSeaMP_Color_Final.txt
"site" "colour" "proportion"
"1" "Beach" "Beige" 22
"2" "Beach" "Black" 0
"3" "Beach" "Grey" 2
"4" "Beach" "Red" 0
"5" "Beach" "White" 63
"6" "Beach" "Yellow" 13
"7" "Wreck" "Beige" 41
"8" "Wreck" "Black" 1
"9" "Wreck" "Grey" 12
"10" "Wreck" "Red" 1
"11" "Wreck" "White" 31
"12" "Wreck" "Yellow" 14

Note: 9jxzs_src/data/Data_RedSeaMP_GPC_Raw.txt
"site" "Mn" "Mw"
"1" "Beach" 7.33 16.33
"2" "Beach" 10.9 30.4
"3" "Beach" 10.8 23.6
"4" "Beach" 23.5 140.4
"5" "Beach" 24.53 111.13
"6" "Beach" 51.87 128.67
"7" "Beach" 9.67 24.47
"8" "Beach" 7.63 15.13
"9" "Wreck" 45.03 130.03
"10" "Wreck" 62.3 158.47
"11" "Wreck" 75.03 177.07
"12" "Wreck" 27.07 79.53
"13" "Wreck" 24.83 78.9

Note: 9jxzs_src/data/Data_RedSeaMP_Mass_Final.txt
"replicate" "site" "mass"
"1" 1 "Beach" 21.6
"2" 2 "Beach" 25.8
"3" 3 "Beach" 24.3
"4" 4 "Beach" 18.7
"5" 5 "Beach" 29.4
"6" 6 "Beach" 22.6
"7" 7 "Beach" 28.1
"8" 8 "Beach" 30.6
"9" 9 "Beach" 27.3
"10" 10 "Beach" 36
"11" 11 "Beach" 21.8
"12" 12 "Beach" 20.8
"13" 13 "Beach" 24.2
"14" 14 "Beach" 17.9
"15" 15 "Beach" 33
"16" 16 "Beach" 23.3
"17" 17 "Beach" 19.8
"18" 18 "Beach" 19.9
"19" 19 "Beach" 27.1
"20" 20 "Beach" 27.2
"21" 21 "Beach" 22
"22" 22 "Beach" 24.1
"23" 23 "Beach" 25.8
"24" 24 "Beach" 23.1
"25" 25 "Beach" 33.5
"26" 26 "Beach" 25.8
"27" 27 "Beach" 45.7
"28" 28 "Beach" 24.3
"29" 29 "Beach" 29
"30" 30 "Beach" 23.5
"31" 31 "Beach" 27.1
"32" 32 "Beach" 23.5
"33" 33 "Beach" 23.1
"34" 34 "Beach" 25.7
"35" 35 "Beach" 25.9
"36" 36 "Beach" 39.6
"37" 37 "Beach" 25.8
"38" 38 "Beach" 33
"39" 39 "Beach" 30.5
"40" 40 "Beach" 22.9
"41" 41 "Beach" 26.7
"42" 42 "Beach" 23.6
"43" 43 "Beach" 40.7
"44" 44 "Beach" 26.2
"45" 45 "Beach" 24.8
"46" 46 "Beach" 24
"47" 47 "Beach" 23
"48" 48 "Beach" 26.5
"49" 49 "Beach" 24
"50" 50 "Beach" 23.4
"51" 51 "Beach" 22.9
"52" 52 "Beach" 26.7
"53" 53 "Beach" 20.9
"54" 54 "Beach" 21.1
"55" 55 "Beach" 31.6
"56" 56 "Beach" 20.1
"57" 57 "Beach" 19.3
"58" 58 "Beach" 20.1
"59" 59 "Beach" 25.8
"60" 60 "Beach" 26.6
"61" 61 "Beach" 23
"62" 62 "Beach" 28.1
"63" 63 "Beach" 26.8
"64" 64 "Beach" 20.6
"65" 65 "Beach" 23.3
"66" 66 "Beach" 25.3
"67" 67 "Beach" 22.5
"68" 68 "Beach" 24.6
"69" 69 "Beach" 26.3
"70" 70 "Beach" 21.7
"71" 71 "Beach" 20.6
"72" 72 "Beach" 27.1
"73" 73 "Beach" 26.9
"74" 74 "Beach" 23.7
"75" 75 "Beach" 21.8
"76" 76 "Beach" 28.5
"77" 77 "Beach" 24.7
"78" 78 "Beach" 22.5
"79" 79 "Beach" 27.8
"80" 80 "Beach" 20.4
"81" 81 "Beach" 21.7
"82" 82 "Beach" 23.4
"83" 83 "Beach" 22.7
"84" 84 "Beach" 22.2
"85" 85 "Beach" 21.3
"86" 86 "Beach" 27.6
"87" 87 "Beach" 22.3
"88" 88 "Beach" 20
"89" 89 "Beach" 28.4
"90" 90 "Beach" 28.2
"91" 91 "Beach" 29.8
"92" 92 "Beach" 24.5
"93" 93 "Beach" 40.5
"94" 94 "Beach" 26.2
"95" 95 "Beach" 22.9
"96" 96 "Beach" 19.4
"97" 97 "Beach" 23
"98" 98 "Beach" 19.5
"99" 99 "Beach" 24
"100" 100 "Beach" 26.2
"101" 1 "Wreck" 35.4
"102" 2 "Wreck" 36.4
"103" 3 "Wreck" 17.6
"104" 4 "Wreck" 30.8
"105" 5 "Wreck" 21.5
"106" 6 "Wreck" 24.9
"107" 7 "Wreck" 29.7
"108" 8 "Wreck" 26.9
"109" 9 "Wreck" 19.7
"110" 10 "Wreck" 23.5
"111" 11 "Wreck" 26.8
"112" 12 "Wreck" 26.2
"113" 13 "Wreck" 25.6
"114" 14 "Wreck" 23.2
"115" 15 "Wreck" 23.4
"116" 16 "Wreck" 25.8
"117" 17 "Wreck" 23.9
"118" 18 "Wreck" 33.9
"119" 19 "Wreck" 37.9
"120" 20 "Wreck" 34.3
"121" 21 "Wreck" 27.1
"122" 22 "Wreck" 19.5
"123" 23 "Wreck" 23
"124" 24 "Wreck" 16.9
"125" 25 "Wreck" 21.8
"126" 26 "Wreck" 26.3
"127" 27 "Wreck" 18.1
"128" 28 "Wreck" 25
"129" 29 "Wreck" 27.9
"130" 30 "Wreck" 30.8
"131" 31 "Wreck" 23.8
"132" 32 "Wreck" 21.6
"133" 33 "Wreck" 20
"134" 34 "Wreck" 26.8
"135" 35 "Wreck" 30.9
"136" 36 "Wreck" 26
"1

File: Data_RedSeaMP_DSC_Crystallinity_Final.txt
"site" "crystallinity"
"1" "Wreck" 42.7167
"2" "Wreck" 42.2218
"3" "Wreck" 41.6758
"4" "Wreck" 42.4096
"5" "Wreck" 41.6177
"6" "Wreck" 42.0512
"7" "Wreck" 40.8908
"8" "Wreck" 42.5085
"9" "Wreck" 42.8498
"10" "Wreck" 42.6826
"11" "Beach" 43.8328
"12" "Beach" 44.4505
"13" "Beach" 46.6621
"14" "Beach" 46.9352
"15" "Beach" 49.2799
"16" "Beach" 39.9898
"17" "Beach" 41.3038
"18" "Beach" 45.9488
"19" "Beach" 46.6416
"20" "Beach" 45.8498